trials.thisRepN,trials.thisTrialN,trials.thisN,trials.thisIndex,fixation.started,key_resp.started,fixation.stopped,key_resp.keys,key_resp.corr,key_resp.rt,key_resp.duration,tilt,participant,session,date,expName,psychopyVersion,frameRate,
0,0,0,0,14.814841300001717,15.887797499999579,15.905635800001619,down,1,1.1955503999924986,None,-2,714593,001,2023-09-08_11h40.00.606,orientationdiscriminiationtask,2023.1.3,59.96947553665393,
1,0,1,0,17.1215114000006,18.107469300004595,18.124191200004134,down,0,0.7398594999904162,None,0,714593,001,2023-09-08_11h40.00.606,orientationdiscriminiationtask,2023.1.3,59.96947553665393,
2,0,2,0,18.888151999999536,19.873327200002677,19.890124500001548,down,1,0.7143854999958421,None,-3,714593,001,2023-09-08_11h40.00.606,orientationdiscriminiationtask,2023.1.3,59.96947553665393,
3,0,3,0,20.621062100006384,21.60427560000244,21.620524700003443,down,1,0.8230178000012529,None,-3,714593,001,2023-09-08_11h40.00.606,orientationdiscriminiationtask,2023.1.3,59.96947553665393,
4,0,4,0,22.47016910000093,23.455240300005244,23.472363300003053,down,1,0.6185983999894233,None,-5,714593,001,2023-09-08_11h40.00.606,orientationdiscriminiationtask,2023.1.3,59.96947553665393,
5,0,5,0,24.11958450000384,25.1053000000029,25.122180900005333,down,0,0.6329463000001851,None,0,714593,001,2023-09-08_11h40.00.606,orientationdiscriminiationtask,2023.1.3,59.96947553665393,
6,0,6,0,25.769472400002996,26.75255940000352,26.7691799000022,down,1,0.5586628999881214,None,-4,714593,001,2023-09-08_11h40.00.606,orientationdiscriminiationtask,2023.1.3,59.96947553665393,
7,0,7,0,27.35210740000184,28.335001600004034,28.351792400004342,down,0,0.6147568999949726,None,0,714593,001,2023-09-08_11h40.00.606,orientationdiscriminiationtask,2023.1.3,59.96947553665393,
8,0,8,0,28.984933300002012,29.969997300002433,29.98650460000499,down,1,1.1830044999951497,None,0,714593,001,2023-09-08_11h40.00.606,orientationdiscriminiationtask,2023.1.3,59.96947553665393,
9,0,9,0,31.183720100001665,32.167311200006225,32.18419910000375,down,0,0.7760014999948908,None,0,714593,001,2023-09-08_11h40.00.606,orientationdiscriminiationtask,2023.1.3,59.96947553665393,
10,0,10,0,32.98383370000374,33.96935500000109,33.9862304000053,down,0,0.5913978999960818,None,0,714593,001,2023-09-08_11h40.00.606,orientationdiscriminiationtask,2023.1.3,59.96947553665393,
11,0,11,0,34.600042199999734,35.58545620000223,35.601377500002855,up,0,0.7526334999929531,None,0,714593,001,2023-09-08_11h40.00.606,orientationdiscriminiationtask,2023.1.3,59.96947553665393,
12,0,12,0,36.36545920000208,37.367751199999475,37.367751199999475,down,0,0.7848251999967033,None,0,714593,001,2023-09-08_11h40.00.606,orientationdiscriminiationtask,2023.1.3,59.96947553665393,
13,0,13,0,38.198067600002105,39.18379330000607,39.200238600002194,down,0,0.5653629999942495,None,0,714593,001,2023-09-08_11h40.00.606,orientationdiscriminiationtask,2023.1.3,59.96947553665393,
14,0,14,0,39.7814639000062,40.76700610000262,40.78423670000484,down,0,0.9827702999973553,None,0,714593,001,2023-09-08_11h40.00.606,orientationdiscriminiationtask,2023.1.3,59.96947553665393,
15,0,15,0,41.78028730000369,42.764194100003806,42.78109350000159,down,1,3.6282119999887072,None,-3,714593,001,2023-09-08_11h40.00.606,orientationdiscriminiationtask,2023.1.3,59.96947553665393,
16,0,16,0,46.41323779999948,47.41385150000133,47.41385150000133,down,0,1.3935836999953608,None,0,714593,001,2023-09-08_11h40.00.606,orientationdiscriminiationtask,2023.1.3,59.96947553665393,
17,0,17,0,48.845566300005885,49.83077540000522,49.847645500005456,down,1,1.3797083999961615,None,-3,714593,001,2023-09-08_11h40.00.606,orientationdiscriminiationtask,2023.1.3,59.96947553665393,
18,0,18,0,51.244144600001164,52.229448500002036,52.24659720000636,down,0,1.2670696999921347,None,0,714593,001,2023-09-08_11h40.00.606,orientationdiscriminiationtask,2023.1.3,59.96947553665393,
19,0,19,0,53.527155499999935,54.51290069999959,54.52955710000242,down,0,1.3744402999946033,None,0,714593,001,2023-09-08_11h40.00.606,orientationdiscriminiationtask,2023.1.3,59.96947553665393,
20,0,20,0,55.926981300006446,56.91087950000656,56.92847240000265,up,0,0.9781009999933303,None,0,714593,001,2023-09-08_11h40.00.606,orientationdiscriminiationtask,2023.1.3,59.96947553665393,
21,0,21,0,57.92552280000382,58.911190600003465,58.92769560000306,down,1,0.7323197999940021,None,4,714593,001,2023-09-08_11h40.00.606,orientationdiscriminiationtask,2023.1.3,59.96947553665393,
22,0,22,0,59.67534650000016,60.66040440000506,60.67760100000305,down,1,0.6792229999919073,None,4,714593,001,2023-09-08_11h40.00.606,orientationdiscriminiationtask,2023.1.3,59.96947553665393,
23,0,23,0,61.37416210000083,62.36025110000628,62.37658590000501,down,1,0.8290765999990981,None,3,714593,001,2023-09-08_11h40.00.606,orientationdiscriminiationtask,2023.1.3,59.96947553665393,
24,0,24,0,63.22385310000391,64.20935880000616,64.2259708000056,down,1,0.612878499996441,None,4,714593,001,2023-09-08_11h40.00.606,orientationdiscriminiationtask,2023.1.3,59.96947553665393,
25,0,25,0,64.85672850000265,65.84191960000317,65.85891439999978,up,1,1.3554894999979297,None,0,714593,001,2023-09-08_11h40.00.606,orientationdiscriminiationtask,2023.1.3,59.96947553665393,
26,0,26,0,67.22390650000307,68.22462450000603,68.22462450000603,down,1,1.6242543999906047,None,-4,714593,001,2023-09-08_11h40.00.606,orientationdiscriminiationtask,2023.1.3,59.96947553665393,
27,0,27,0,69.88834640000277,70.87143389999983,70.88863340000535,up,1,1.064742099995783,None,0,714593,001,2023-09-08_11h40.00.606,orientationdiscriminiationtask,2023.1.3,59.96947553665393,
28,0,28,0,71.97094420000212,72.95655680000345,72.9733550000019,down,1,0.7284829999989597,None,-3,714593,001,2023-09-08_11h40.00.606,orientationdiscriminiationtask,2023.1.3,59.96947553665393,
29,0,29,0,73.72073230000387,74.70622860000003,74.7229598000049,down,1,0.6635943999935989,None,-3,714593,001,2023-09-08_11h40.00.606,orientationdiscriminiationtask,2023.1.3,59.96947553665393,
30,0,30,0,75.40335590000177,76.38897420000285,76.40555950000271,up,1,1.015327499990235,None,0,714593,001,2023-09-08_11h40.00.606,orientationdiscriminiationtask,2023.1.3,59.96947553665393,
31,0,31,0,77.43617410000297,78.42151659999945,78.43864130000293,down,1,1.0893677999920328,None,3,714593,001,2023-09-08_11h40.00.606,orientationdiscriminiationtask,2023.1.3,59.96947553665393,
32,0,32,0,79.55233869999938,80.53812690000632,80.55503030000546,down,0,0.9977483999900869,None,0,714593,001,2023-09-08_11h40.00.606,orientationdiscriminiationtask,2023.1.3,59.96947553665393,
33,0,33,0,81.56822050000483,82.55374610000581,82.57039680000162,down,1,1.2333123999924283,None,-2,714593,001,2023-09-08_11h40.00.606,orientationdiscriminiationtask,2023.1.3,59.96947553665393,
34,0,34,0,83.81777390000207,84.80373790000158,84.82021350000286,up,0,0.8090953999999329,None,-1,714593,001,2023-09-08_11h40.00.606,orientationdiscriminiationtask,2023.1.3,59.96947553665393,
35,0,35,0,85.65025389999937,86.63584610000544,86.65306460000284,up,1,0.8205558999979985,None,0,714593,001,2023-09-08_11h40.00.606,orientationdiscriminiationtask,2023.1.3,59.96947553665393,
36,0,36,0,87.48356110000168,88.48510600000009,88.48510600000009,up,1,0.8334751999936998,None,0,714593,001,2023-09-08_11h40.00.606,orientationdiscriminiationtask,2023.1.3,59.96947553665393,
37,0,37,0,89.3491783999998,90.3340640000024,90.35085800000525,down,0,1.5479127999933553,None,0,714593,001,2023-09-08_11h40.00.606,orientationdiscriminiationtask,2023.1.3,59.96947553665393,
38,0,38,0,91.89943530000164,92.90041120000387,92.90041120000387,down,0,1.1010555999964708,None,0,714593,001,2023-09-08_11h40.00.606,orientationdiscriminiationtask,2023.1.3,59.96947553665393,
39,0,39,0,94.03121839999949,95.0166176000057,95.03345940000145,down,0,1.7442757999961032,None,0,714593,001,2023-09-08_11h40.00.606,orientationdiscriminiationtask,2023.1.3,59.96947553665393,
40,0,40,0,96.7963688000018,97.78222800000367,97.79875100000208,down,1,0.6367450999969151,None,3,714593,001,2023-09-08_11h40.00.606,orientationdiscriminiationtask,2023.1.3,59.96947553665393,
41,0,41,0,98.46542190000036,99.44832160000078,99.46500809999998,down,1,1.9838273999994271,None,3,714593,001,2023-09-08_11h40.00.606,orientationdiscriminiationtask,2023.1.3,59.96947553665393,
42,0,42,0,101.46272080000199,102.46364069999981,102.46364069999981,down,1,1.1317386999944574,None,-3,714593,001,2023-09-08_11h40.00.606,orientationdiscriminiationtask,2023.1.3,59.96947553665393,
43,0,43,0,103.62795920000644,104.6131705000007,104.63030370000342,up,1,0.917825599994103,None,0,714593,001,2023-09-08_11h40.00.606,orientationdiscriminiationtask,2023.1.3,59.96947553665393,
44,0,44,0,105.56065550000494,106.54663900000014,106.56292960000428,up,1,0.6635366999980761,None,0,714593,001,2023-09-08_11h40.00.606,orientationdiscriminiationtask,2023.1.3,59.96947553665393,
45,0,45,0,107.22696530000394,108.22901430000638,108.22901430000638,down,1,0.8413892999960808,None,2,714593,001,2023-09-08_11h40.00.606,orientationdiscriminiationtask,2023.1.3,59.96947553665393,
46,0,46,0,109.10948150000331,110.09516260000237,110.11170780000248,down,1,0.7321353999941493,None,-4,714593,001,2023-09-08_11h40.00.606,orientationdiscriminiationtask,2023.1.3,59.96947553665393,
47,0,47,0,110.8592792000054,111.8437952000022,111.86055690000649,down,1,0.586252199995215,None,-4,714593,001,2023-09-08_11h40.00.606,orientationdiscriminiationtask,2023.1.3,59.96947553665393,
48,0,48,0,112.4575113000028,113.44393160000618,113.46058880000055,down,1,0.5512336999890977,None,-4,714593,001,2023-09-08_11h40.00.606,orientationdiscriminiationtask,2023.1.3,59.96947553665393,
49,0,49,0,114.02456300000631,115.01049469999998,115.02806150000106,down,0,1.405657599992992,None,0,714593,001,2023-09-08_11h40.00.606,orientationdiscriminiationtask,2023.1.3,59.96947553665393,
50,0,50,0,116.4571075000058,117.4430760000032,117.45941740000126,down,1,1.2840168999900925,None,-4,714593,001,2023-09-08_11h40.00.606,orientationdiscriminiationtask,2023.1.3,59.96947553665393,
51,0,51,0,118.77314340000157,119.75853600000119,119.77515359999961,down,0,0.8449080999998841,None,0,714593,001,2023-09-08_11h40.00.606,orientationdiscriminiationtask,2023.1.3,59.96947553665393,
52,0,52,0,120.63937650000298,121.62520510000468,121.6412466000038,up,1,1.3588919999965583,None,0,714593,001,2023-09-08_11h40.00.606,orientationdiscriminiationtask,2023.1.3,59.96947553665393,
53,0,53,0,123.0224942000059,124.00813330000528,124.02468750000116,down,1,0.9634034999908181,None,3,714593,001,2023-09-08_11h40.00.606,orientationdiscriminiationtask,2023.1.3,59.96947553665393,
54,0,54,0,125.00517060000129,125.99064820000058,126.00856840000051,down,0,1.2571595999907004,None,0,714593,001,2023-09-08_11h40.00.606,orientationdiscriminiationtask,2023.1.3,59.96947553665393,
55,0,55,0,127.27223420000519,128.27232840000215,128.27232840000215,down,1,0.7114935999925365,None,4,714593,001,2023-09-08_11h40.00.606,orientationdiscriminiationtask,2023.1.3,59.96947553665393,
56,0,56,0,129.02076320000197,130.00620260000142,130.02274020000186,down,1,0.5818970999971498,None,0,714593,001,2023-09-08_11h40.00.606,orientationdiscriminiationtask,2023.1.3,59.96947553665393,
57,0,57,0,130.61954289999994,131.60493610000412,131.62165070000628,down,1,0.6417102999912458,None,-4,714593,001,2023-09-08_11h40.00.606,orientationdiscriminiationtask,2023.1.3,59.96947553665393,
58,0,58,0,132.28524550000293,133.27023570000165,133.28593180000462,up,1,4.8310954999979,None,0,714593,001,2023-09-08_11h40.00.606,orientationdiscriminiationtask,2023.1.3,59.96947553665393,
59,0,59,0,138.13391270000284,139.11938610000652,139.13556950000202,down,0,1.5132652999964193,None,0,714593,001,2023-09-08_11h40.00.606,orientationdiscriminiationtask,2023.1.3,59.96947553665393,
60,0,60,0,140.66618220000237,141.6518628000049,141.6758162000042,down,1,0.8910836999930325,None,1,714593,001,2023-09-08_11h40.00.606,orientationdiscriminiationtask,2023.1.3,59.96947553665393,
61,0,61,0,142.58191400000214,143.5682084,143.58434330000455,down,1,0.6893643000003067,None,4,714593,001,2023-09-08_11h40.00.606,orientationdiscriminiationtask,2023.1.3,59.96947553665393,
62,0,62,0,144.29877520000446,145.28438680000545,145.30194680000568,up,0,0.911452599990298,None,2,714593,001,2023-09-08_11h40.00.606,orientationdiscriminiationtask,2023.1.3,59.96947553665393,
63,0,63,0,146.23146310000448,147.2147086000041,147.23137830000633,up,1,1.3766480999984196,None,0,714593,001,2023-09-08_11h40.00.606,orientationdiscriminiationtask,2023.1.3,59.96947553665393,
64,0,64,0,148.63057090000075,149.6162481000065,149.6324034000063,up,1,0.728461899991089,None,0,714593,001,2023-09-08_11h40.00.606,orientationdiscriminiationtask,2023.1.3,59.96947553665393,
65,0,65,0,150.38015180000366,151.36544460000005,151.3818917000026,up,1,0.6236843999940902,None,0,714593,001,2023-09-08_11h40.00.606,orientationdiscriminiationtask,2023.1.3,59.96947553665393,
66,0,66,0,152.02932220000366,153.015089600005,153.03147960000206,down,1,0.996914299990749,None,1,714593,001,2023-09-08_11h40.00.606,orientationdiscriminiationtask,2023.1.3,59.96947553665393,
67,0,67,0,154.04636469999969,155.03100500000437,155.04809920000116,down,1,0.693931399990106,None,2,714593,001,2023-09-08_11h40.00.606,orientationdiscriminiationtask,2023.1.3,59.96947553665393,
68,0,68,0,155.76165340000443,156.74734880000324,156.76381860000402,up,1,0.8927428999959375,None,0,714593,001,2023-09-08_11h40.00.606,orientationdiscriminiationtask,2023.1.3,59.96947553665393,
69,0,69,0,157.66225690000283,158.66344650000246,158.66344650000246,down,1,0.7288420999902883,None,-5,714593,001,2023-09-08_11h40.00.606,orientationdiscriminiationtask,2023.1.3,59.96947553665393,
70,0,70,0,159.42768810000416,160.41340350000246,160.4303188000049,up,1,1.078853999992134,None,0,714593,001,2023-09-08_11h40.00.606,orientationdiscriminiationtask,2023.1.3,59.96947553665393,
71,0,71,0,161.51072820000263,162.5119124000048,162.5119124000048,up,1,1.3637886999931652,None,0,714593,001,2023-09-08_11h40.00.606,orientationdiscriminiationtask,2023.1.3,59.96947553665393,
72,0,72,0,163.90887769999972,164.8953840000031,164.9119492000027,up,1,0.6842663999996148,None,0,714593,001,2023-09-08_11h40.00.606,orientationdiscriminiationtask,2023.1.3,59.96947553665393,
73,0,73,0,165.6249664000061,166.60888160000468,166.62533480000275,down,1,0.90244389999134,None,-5,714593,001,2023-09-08_11h40.00.606,orientationdiscriminiationtask,2023.1.3,59.96947553665393,
74,0,74,0,167.54133260000526,168.52660390000528,168.543313400005,up,0,2.3511857999910717,None,1,714593,001,2023-09-08_11h40.00.606,orientationdiscriminiationtask,2023.1.3,59.96947553665393,
75,0,75,0,170.90682510000624,171.89070760000322,171.90782770000078,up,1,0.5945435999965412,None,0,714593,001,2023-09-08_11h40.00.606,orientationdiscriminiationtask,2023.1.3,59.96947553665393,
76,0,76,0,172.52327200000582,173.50825280000572,173.52492320000601,down,1,0.5846621999953641,None,-4,714593,001,2023-09-08_11h40.00.606,orientationdiscriminiationtask,2023.1.3,59.96947553665393,
77,0,77,0,174.12347430000227,175.10829120000562,175.12531320000562,down,1,0.596735399994941,None,0,714593,001,2023-09-08_11h40.00.606,orientationdiscriminiationtask,2023.1.3,59.96947553665393,
78,0,78,0,175.73902950000047,176.72420710000006,176.74234080000315,down,1,2.403320099998382,None,4,714593,001,2023-09-08_11h40.00.606,orientationdiscriminiationtask,2023.1.3,59.96947553665393,
79,0,79,0,179.17128420000518,180.15753580000455,180.17379939999955,down,1,0.5944668999945861,None,-4,714593,001,2023-09-08_11h40.00.606,orientationdiscriminiationtask,2023.1.3,59.96947553665393,
80,0,80,0,180.787187300004,181.7724481000041,181.78975730000093,down,0,0.80699349999486,None,0,714593,001,2023-09-08_11h40.00.606,orientationdiscriminiationtask,2023.1.3,59.96947553665393,
81,0,81,0,182.60374779999984,183.6055564000053,183.6055564000053,down,0,0.5659797999906004,None,0,714593,001,2023-09-08_11h40.00.606,orientationdiscriminiationtask,2023.1.3,59.96947553665393,
82,0,82,0,184.20265630000358,185.188298400004,185.20566660000623,down,0,0.8398266999938642,None,0,714593,001,2023-09-08_11h40.00.606,orientationdiscriminiationtask,2023.1.3,59.96947553665393,
83,0,83,0,186.06869890000235,187.05438850000064,187.06997820000106,down,0,0.5041777999940678,None,0,714593,001,2023-09-08_11h40.00.606,orientationdiscriminiationtask,2023.1.3,59.96947553665393,
84,0,84,0,187.60143680000328,188.58720990000438,188.60376030000043,down,1,0.4967322999946191,None,-4,714593,001,2023-09-08_11h40.00.606,orientationdiscriminiationtask,2023.1.3,59.96947553665393,
85,0,85,0,189.11937490000128,190.10385760000645,190.12061260000337,down,1,0.6228341999958502,None,2,714593,001,2023-09-08_11h40.00.606,orientationdiscriminiationtask,2023.1.3,59.96947553665393,
86,0,86,0,190.7677193000054,191.75079910000204,191.7673403000008,down,1,0.6359634999971604,None,-3,714593,001,2023-09-08_11h40.00.606,orientationdiscriminiationtask,2023.1.3,59.96947553665393,
87,0,87,0,192.41653320000478,193.40240220000123,193.41949240000395,down,1,0.782937399999355,None,3,714593,001,2023-09-08_11h40.00.606,orientationdiscriminiationtask,2023.1.3,59.96947553665393,
88,0,88,0,194.21687280000333,195.20278110000072,195.21913390000555,down,0,0.6094484999994165,None,0,714593,001,2023-09-08_11h40.00.606,orientationdiscriminiationtask,2023.1.3,59.96947553665393,
89,0,89,0,195.84940440000355,196.8340218000012,196.8505323000063,down,0,0.5843909999966854,None,0,714593,001,2023-09-08_11h40.00.606,orientationdiscriminiationtask,2023.1.3,59.96947553665393,
90,0,90,0,197.4651348000043,198.45016270000633,198.46727790000295,down,1,0.5956475999992108,None,-4,714593,001,2023-09-08_11h40.00.606,orientationdiscriminiationtask,2023.1.3,59.96947553665393,
91,0,91,0,199.08157680000295,200.06705320000037,200.08376890000363,down,1,0.6426761999973678,None,3,714593,001,2023-09-08_11h40.00.606,orientationdiscriminiationtask,2023.1.3,59.96947553665393,
92,0,92,0,200.7480754999997,201.73306330000196,201.74928660000296,up,1,0.621217699997942,None,0,714593,001,2023-09-08_11h40.00.606,orientationdiscriminiationtask,2023.1.3,59.96947553665393,
93,0,93,0,202.38078289999976,203.3825044000041,203.3825044000041,down,1,0.624521999998251,None,-5,714593,001,2023-09-08_11h40.00.606,orientationdiscriminiationtask,2023.1.3,59.96947553665393,
94,0,94,0,204.04648550000275,205.0324252999999,205.05009390000487,up,1,0.879732099994726,None,0,714593,001,2023-09-08_11h40.00.606,orientationdiscriminiationtask,2023.1.3,59.96947553665393,
95,0,95,0,205.94673100000364,206.93077320000157,206.946523300001,down,1,1.369131199993717,None,-3,714593,001,2023-09-08_11h40.00.606,orientationdiscriminiationtask,2023.1.3,59.96947553665393,
96,0,96,0,208.34524970000348,209.3314049000037,209.34766990000207,down,0,0.6596742999972776,None,0,714593,001,2023-09-08_11h40.00.606,orientationdiscriminiationtask,2023.1.3,59.96947553665393,
97,0,97,0,210.0282057000004,211.013412100001,211.03101150000293,down,1,0.9434928999908152,None,-4,714593,001,2023-09-08_11h40.00.606,orientationdiscriminiationtask,2023.1.3,59.96947553665393,
98,0,98,0,211.99375470000086,212.9799994000059,212.99598140000307,down,1,0.6602364999926067,None,3,714593,001,2023-09-08_11h40.00.606,orientationdiscriminiationtask,2023.1.3,59.96947553665393,
99,0,99,0,213.6766254000031,214.66379670000606,214.67919750000146,up,1,1.0329175999941071,None,0,714593,001,2023-09-08_11h40.00.606,orientationdiscriminiationtask,2023.1.3,59.96947553665393,
